{
  "resourceType": "Bundle",
  "type": "collection",
  "entry": [
    {
      "fullUrl": "http://example.com/fhir/Claim/minimal",
      "resource": {
        "resourceType": "Claim",
        "id": "minimal",
        "status": "draft",
        "type": {
          "coding": [
            {
              "system": "http://terminology.hl7.org/CodeSystem/claim-type",
              "code": "professional",
              "display": "Professional"
            }
          ]
        },
        "use": "preauthorization",
        "patient": {
          "reference": "Patient/pat013"
        },
        "created": "2019-04-01",
        "provider": {
          "reference": "Practitioner/pra1234"
        },
        "priority": {
          "coding": [
            {
              "code": "normal"
            }
          ]
        },
        "prescription": {
          "reference": "DeviceRequest/devreq123"
        },
        "supportingInfo": [
          {
            "sequence": 1,
            "category": {
              "coding": [
                {
                  "system": "http://terminology.hl7.org/CodeSystem/claiminformationcategory",
                  "code": "info",
                  "display": "Information"
                }
              ]
            },
            "valueReference": {
              "reference": "QuestionnaireResponse/response1"
            }
          }
        ],
        "diagnosis": [
          {
            "sequence": 1,
            "diagnosisReference": {
              "reference": "Condition/cond013a"
            }
          },
          {
            "sequence": 2,
            "diagnosisReference": {
              "reference": "Condition/cond013b"
            }
          }
        ],
        "insurance": [
          {
            "sequence": 1,
            "focal": true,
            "coverage": {
              "reference": "Coverage/cov1234"
            }
          }
        ]
      }
    },
    {
      "fullUrl": "http://example.com/fhir/DeviceRequest/devreq123",
      "resource": {
        "resourceType": "DeviceRequest",
        "id": "devreq123",
        "extension": [
          {
            "url": "http://build.fhir.org/ig/HL7/davinci-crd/STU3/ext-insurance.html",
            "valueReference": {
              "reference": "Coverage/cov1234"
            }
          }
        ],
        "status": "draft",
        "intent": "original-order",
        "codeCodeableConcept": {
          "coding": [
            {
              "system": "https://www.cms.gov/Medicare/Coding/HCPCSReleaseCodeSets",
              "code": "E0424",
              "display": "Stationary Compressed Gaseous Oxygen System, Rental"
            }
          ]
        },
        "subject": {
          "reference": "Patient/pat013"
        },
        "performer": {
          "reference": "PractitionerRole/pra1234"
        },
        "insurance": {
          "reference": "Coverage/cov1234"
        }
      }
    },
    {
      "fullUrl": "http://example.com/fhir/QuestionnaireResponse/response1",
      "resource":     {
        "resourceType": "QuestionnaireResponse",
        "id": "response1",
        "authored": "2019-04-23",
        "status": "completed",
        "item": [
          {
            "linkId": "1",
            "text": "Patient Information",
            "item": [
              {
                "linkId": "1.1",
                "text": "Last Name",
                "answer": [
                  {
                    "valueString": "Smith"
                  }
                ]
              },
              {
                "linkId": "1.2",
                "text": "First Name",
                "answer": [
                  {
                    "valueString": "Paul"
                  }
                ]
              },
              {
                "linkId": "1.3",
                "text": "Middle Initial",
                "answer": [
                  {
                    "valueString": "A, N"
                  }
                ]
              },
              {
                "linkId": "1.4",
                "text": "Date Of Birth",
                "answer": [
                  {
                    "valueDate": "1979-07-04"
                  }
                ]
              },
              {
                "linkId": "1.5",
                "text": "Gender",
                "answer": [
                  {
                    "valueCoding": {
                      "code": "male",
                      "display": "Male"
                    }
                  }
                ]
              },
              {
                "linkId": "1.6",
                "text": "Medicare ID",
                "answer": [
                  {
                    "valueString": "10A3D58WH22"
                  }
                ]
              }
            ]
          },
          {
            "linkId": "2",
            "text": "Provider who is performing face-to-face evaluation",
            "item": [
              {
                "linkId": "2.1",
                "text": "Last Name",
                "answer": [
                  {
                    "valueString": "Doe"
                  }
                ]
              },
              {
                "linkId": "2.2",
                "text": "First Name",
                "answer": [
                  {
                    "valueString": "Jane"
                  }
                ]
              },
              {
                "linkId": "2.3",
                "text": "Middle Initial",
                "answer": [
                  {
                    "valueString": "N/A"
                  }
                ]
              },
              {
                "linkId": "2.4",
                "text": "NPI",
                "answer": [
                  {
                    "valueString": "1122334455"
                  }
                ]
              },
              {
                "linkId": "2.5",
                "text": "Date of Face-To-Face Evaluation",
                "answer": [
                  {
                    "valueDate": "2019-04-23"
                  }
                ]
              }
            ]
          },
          {
            "linkId": "3",
            "text": "Coverage Requirements",
            "item": [
              {
                "linkId": "3.1",
                "text": "Relevant Patient Diagnoses (conditions that might be expected to improve with oxygen therapy)",
                "answer": [
                  {
                    "valueCoding": {
                      "code": "COPD",
                      "display": "COPD"
                    }
                  },
                  {
                    "valueCoding": {
                      "code": "Hypoxemia",
                      "display": "Hypoxemia"
                    }
                  }
                ]
              },
              {
                "linkId": "3.2",
                "text": "Arterial oxygen saturation (Patient on room air while at rest and awake when tested)",
                "answer": [
                  {
                    "valueQuantity": {
                      "unit": "%",
                      "value": 85
                    }
                  }
                ]
              },
              {
                "linkId": "3.3",
                "text": "Arterial Partial Pressure of Oxygen (PO2) (Patient on room air while at rest and awake when tested)"
              },
              {
                "linkId": "3.4",
                "text": "Arterial oxygen saturation (Patient tested during exercise)"
              },
              {
                "linkId": "3.5",
                "text": "Arterial Partial Pressure of Oxygen (PO2) (Patient tested during exercise)"
              },
              {
                "linkId": "3.6",
                "text": "Is there a documented improvement of hypoxemia during exercise with oxygen?"
              },
              {
                "linkId": "3.11",
                "text": "Recent hematocrit result",
                "answer": [
                  {
                    "valueQuantity": {
                      "unit": "%",
                      "value": 61
                    }
                  }
                ]
              }
            ]
          },
          {
            "linkId": "4",
            "text": "Prescribed Use",
            "item": [
              {
                "linkId": "4.1",
                "text": "Start date",
                "answer": [
                  {
                    "valueDate": "2019-04-23"
                  }
                ]
              },
              {
                "linkId": "4.2",
                "text": "Length of need: (months) (99 = lifetime)",
                "answer": [
                  {
                    "integer": "99"
                  }
                ]
              },
              {
                "linkId": "4.4",
                "text": "Peak Flow Rate",
                "item": [
                  {
                    "linkId": "4.4.1",
                    "text": "LPM",
                    "answer": [
                      {
                        "integer": "3"
                      }
                    ]
                  },
                  {
                    "linkId": "4.4.2",
                    "text": "oxygen %",
                    "answer": [
                      {
                        "integer": "5"
                      }
                    ]
                  }
                ]
              },
              {
                "linkId": "4.5",
                "text": "Average Flow Rate",
                "item": [
                  {
                    "linkId": "4.5.1",
                    "text": "LPM",
                    "answer": [
                      {
                        "integer": "2"
                      }
                    ]
                  },
                  {
                    "linkId": "4.5.2",
                    "text": "oxygen %",
                    "answer": [
                      {
                        "integer": "5"
                      }
                    ]
                  }
                ]
              },
              {
                "linkId": "4.6",
                "text": "Frequency of use (choose all that apply)",
                "answer": [
                  {
                    "valueCoding": {
                      "code": "During sleep",
                      "display": "During sleep"
                    }
                  }
                ]
              }
            ]
          },
          {
            "linkId": "5",
            "text": "Oxygen Supply Order Details",
            "item": [
              {
                "linkId": "5.1",
                "text": "Current Order Description",
                "answer": [
                  {
                    "valueString": "HCPCS E0424 - Stationary Compressed Gaseous Oxygen System, Rental"
                  }
                ]
              },
              {
                "linkId": "5.1b",
                "text": "Current Order Is For A Portable Device",
                "answer": [
                  {
                    "valueBoolean": false
                  }
                ]
              },
              {
                "linkId": "5.2",
                "text": "Type",
                "answer": [
                  {
                    "valueCoding": {
                      "code": "Compressed Gas",
                      "display": "Compressed Gas"
                    }
                  }
                ]
              },
              {
                "linkId": "5.3",
                "text": "Means of oxygen delivery and accessories",
                "answer": [
                  {
                    "valueCoding": {
                      "code": "High flow oxygen therapy",
                      "display": "High flow oxygen therapy"
                    }
                  }
                ]
              },
              {
                "linkId": "5.4",
                "text": "Type of order",
                "answer": [
                  {
                    "valueCoding": {
                      "code": "Initial or original order for certification",
                      "display": "Initial or original order for certification"
                    }
                  }
                ]
              }
            ]
          }
        ]
      }
    },
    {
      "fullUrl": "http://example.com/fhir/Patient/pat013",
      "resource": {
        "resourceType": "Patient",
        "id": "pat013",
        "meta": {
          "versionId": "1",
          "lastUpdated": "2019-04-08T09:24:47.455-04:00"
        },
        "text": {
          "status": "generated",
          "div": "<div xmlns=\"http://www.w3.org/1999/xhtml\"><div class=\"hapiHeaderText\">Paul Alan Nestor <b>SMITH </b></div><table class=\"hapiPropertyTable\"><tbody><tr><td>Date of birth</td><td><span>04 July 1979</span></td></tr></tbody></table></div>"
        },
        "name": [
          {
            "use": "official",
            "family": "Smith",
            "given": [
              "Paul",
              "Alan",
              "Nestor"
            ]
          }
        ],
        "gender": "male",
        "birthDate": "1979-07-04",
        "address": [
          {
            "use": "home",
            "type": "both",
            "state": "MA"
          }
        ]
      }
    },
    {
      "fullUrl": "http://example.com/fhir/Practitioner/pra1234",
      "resource": {
        "resourceType": "Practitioner",
        "id": "pra1234",
        "meta": {
          "versionId": "1",
          "lastUpdated": "2019-04-08T09:24:45.382-04:00"
        },
        "identifier": [
          {
            "system": "http://hl7.org/fhir/sid/us-npi",
            "value": "1122334455"
          }
        ],
        "name": [
          {
            "family": "Doe",
            "given": [
              "Jane"
            ],
            "prefix": [
              "Dr."
            ]
          }
        ]
      }
    },
    {
      "fullUrl": "http://example.com/fhir/Observation/obs013",
      "resource": {
        "resourceType": "Observation",
        "id": "obs013",
        "meta": {
          "versionId": "1",
          "lastUpdated": "2019-04-08T09:24:47.707-04:00"
        },
        "status": "final",
        "code": {
          "coding": [
            {
              "system": "http://loinc.org",
              "code": "59408-5",
              "display": "Oxygen saturation in Arterial blood by Pulse oximetry"
            }
          ]
        },
        "subject": {
          "reference": "Patient/pat013"
        },
        "issued": "2019-03-20T15:30:10+01:00",
        "valueQuantity": {
          "value": 85,
          "unit": "%",
          "system": "http://unitsofmeasure.org",
          "code": "%"
        }
      }
    },
    {
      "fullUrl": "http://example.com/fhir/Observation/obs013B",
      "resource": {
        "resourceType": "Observation",
        "id": "obs013B",
        "meta": {
          "versionId": "1",
          "lastUpdated": "2019-04-08T09:24:47.761-04:00"
        },
        "status": "final",
        "code": {
          "coding": [
            {
              "system": "http://loinc.org",
              "code": "31100-1",
              "display": "Hematocrit [Volume Fraction] of Blood by Impedance"
            }
          ]
        },
        "subject": {
          "reference": "Patient/pat013"
        },
        "issued": "2019-03-20T15:30:10+01:00",
        "valueQuantity": {
          "value": 61,
          "unit": "%",
          "system": "http://unitsofmeasure.org",
          "code": "%"
        }
      }
    },
    {
      "fullUrl": "http://example.com/fhir/Condition/cond013a",
      "resource": {
        "resourceType": "Condition",
        "id": "cond013a",
        "meta": {
          "versionId": "1",
          "lastUpdated": "2019-04-08T09:24:47.556-04:00"
        },
        "clinicalStatus": "active",
        "verificationStatus": "confirmed",
        "category": [
          {
            "coding": [
              {
                "system": "http://hl7.org/fhir/condition-category",
                "code": "encounter-diagnosis",
                "display": "Encounter Diagnosis"
              }
            ]
          }
        ],
        "code": {
          "coding": [
            {
              "system": "http://hl7.org/fhir/sid/icd-10-cm",
              "code": "J44.9",
              "display": "Chronic obstructive pulmonary disease, unspecified"
            }
          ]
        },
        "subject": {
          "reference": "Patient/pat013"
        }
      }
    },
    {
      "fullUrl": "http://example.com/fhir/Condition/cond013b",
      "resource": {
        "resourceType": "Condition",
        "id": "cond013b",
        "meta": {
          "versionId": "1",
          "lastUpdated": "2019-04-08T09:24:47.604-04:00"
        },
        "clinicalStatus": "active",
        "verificationStatus": "confirmed",
        "category": [
          {
            "coding": [
              {
                "system": "http://hl7.org/fhir/condition-category",
                "code": "encounter-diagnosis",
                "display": "Encounter Diagnosis"
              }
            ]
          }
        ],
        "code": {
          "coding": [
            {
              "system": "http://hl7.org/fhir/sid/icd-10-cm",
              "code": "R09.02",
              "display": "Hypoxemia"
            }
          ]
        },
        "subject": {
          "reference": "Patient/pat013"
        }
      }
    },
    {
      "fullUrl": "http://example.com/fhir/Condition/cond013c",
      "resource": {
        "resourceType": "Condition",
        "id": "cond013c",
        "meta": {
          "versionId": "1",
          "lastUpdated": "2019-04-08T09:24:47.654-04:00"
        },
        "clinicalStatus": "active",
        "verificationStatus": "confirmed",
        "category": [
          {
            "coding": [
              {
                "system": "http://hl7.org/fhir/condition-category",
                "code": "encounter-diagnosis",
                "display": "Encounter Diagnosis"
              }
            ]
          }
        ],
        "code": {
          "coding": [
            {
              "system": "http://hl7.org/fhir/sid/icd-10-cm",
              "code": "E11.21",
              "display": "Type 2 diabetes mellitus with diabetic nephropathy"
            }
          ]
        },
        "subject": {
          "reference": "Patient/pat013"
        }
      }
    },
    {
      "fullUrl": "http://example.com/fhir/Organization/org1234",
      "resource": {
        "resourceType": "Organization",
        "id": "org1234",
        "meta": {
          "versionId": "1",
          "lastUpdated": "2019-04-08T09:24:46.916-04:00"
        },
        "name": "Centers for Medicare and Medicaid Services"
      }
    },
    {
      "fullUrl": "http://example.com/fhir/Location/loc1234",
      "resource": {
        "resourceType": "Location",
        "id": "loc1234",
        "address": {
          "line": [
            "100 Good St"
          ],
          "city": "Bedford",
          "state": "MA",
          "postalCode": "01730"
        }
      }
    },
    {
      "fullUrl": "http://example.com/fhir/PractitionerRole/prarol1234",
      "resource": {
        "resourceType": "PractitionerRole",
        "id": "prarol1234",
        "practitioner": {
          "reference": "Practitioner/pra1234"
        },
        "location": [
          {
            "reference": "Location/loc1234"
          }
        ]
      }
    },
    {
      "fullUrl": "http://example.com/fhir/Coverage/cov1234",
      "resource": {
        "resourceType": "Coverage",
        "id": "cov1234",
        "meta": {
          "versionId": "1",
          "lastUpdated": "2019-04-08T09:24:46.970-04:00"
        },
        "status": "active",
        "beneficiary": {
          "reference": "Patient/pat013"
        },
        "payor": [
          {
            "reference": "Organization/org1234"
          }
        ],
        "class": [
          {
            "type": {
              "coding": [
                {
                  "system": "http://terminology.hl7.org/CodeSystem/coverage-class",
                  "code": "plan",
                  "display": "Plan"
                }
              ]
            },
            "value": "Medicare Part D"
          }
        ]
      }
    },
    {
      "fullUrl": "http://example.com/fhir/Coverage/cov013",
      "resource": {
        "resourceType": "Coverage",
        "id": "cov013",
        "meta": {
          "versionId": "1",
          "lastUpdated": "2019-04-08T09:24:47.521-04:00"
        },
        "status": "active",
        "subscriberId": "10A3D58WH22",
        "beneficiary": {
          "reference": "Patient/pat013"
        },
        "payor": [
          {
            "reference": "Organization/org1234"
          }
        ],
        "class": [
          {
            "type": {
              "coding": [
                {
                  "system": "http://terminology.hl7.org/CodeSystem/coverage-class",
                  "code": "plan",
                  "display": "Plan"
                }
              ]
            },
            "value": "Medicare Part A"
          }
        ]
      }
    }
  ]
}